cond,dur,word_stim,correct_resp,conditions.thisRepN,conditions.thisTrialN,conditions.thisN,conditions.thisIndex,word_stimuli.thisRepN,word_stimuli.thisTrialN,word_stimuli.thisN,word_stimuli.thisIndex,image.started,image.stopped,key_resp_2.keys,key_resp_2.rt,key_resp_2.started,key_resp_2.stopped,image_2.started,image_2.stopped,key_resp_3.keys,key_resp_3.rt,key_resp_3.started,key_resp_3.stopped,text_2.started,text_2.stopped,cross.started,cross.stopped,words.started,words.stopped,key_resp.keys,key_resp.started,key_resp.stopped,key_resp.rt,text.started,text.stopped,participant,session,date,expName,psychopyVersion,frameRate,
,,,,,,,,,,,,22.909581900021294,None,z,26.93862010000157,22.909581900021294,None,,,,,,,,,,,,,,,,,,,Participant 5,001,2021_Dec_01_1454,Memory_Task,2021.2.3,59.92247229749452,
,,,,,,,,,,,,,,,,,,49.87382880001678,None,z,16.53248349999194,49.87382880001678,None,,,,,,,,,,,,,Participant 5,001,2021_Dec_01_1454,Memory_Task,2021.2.3,59.92247229749452,
2,1,whistled,right,0,0,0,1,0,0,0,14,,,,,,,,,,,,,66.45112230000086,None,68.5292635000078,69.03511100000469,69.01861120000831,None,None,69.01861120000831,None,,,,Participant 5,001,2021_Dec_01_1454,Memory_Task,2021.2.3,59.92247229749452,
2,1,name,right,0,0,0,1,0,1,1,7,,,,,,,,,,,,,,,70.02492950001033,70.53495880000992,70.51829550002003,70.02492950001033,right,70.51829550002003,70.02492950001033,0.8269827999756671,,,Participant 5,001,2021_Dec_01_1454,Memory_Task,2021.2.3,59.92247229749452,
2,1,call,left,0,0,0,1,0,2,2,27,,,,,,,,,,,,,,,71.3765107000072,71.89032020000741,71.87776950001717,None,right,71.87776950001717,None,0.593863699992653,,,Participant 5,001,2021_Dec_01_1454,Memory_Task,2021.2.3,59.92247229749452,
2,1,region,left,0,0,0,1,0,3,3,24,,,,,,,,,,,,,,,72.50882170000114,73.01764649999677,73.00111670000479,None,left,73.00111670000479,None,0.6243399000086356,,,Participant 5,001,2021_Dec_01_1454,Memory_Task,2021.2.3,59.92247229749452,
2,1,minute,right,0,0,0,1,0,4,4,2,,,,,,,,,,,,,,,73.69181819999358,74.20100250001997,74.18421229999512,None,right,74.18421229999512,None,0.6778215999947861,,,Participant 5,001,2021_Dec_01_1454,Memory_Task,2021.2.3,59.92247229749452,
2,1,spots,right,0,0,0,1,0,5,5,5,,,,,,,,,,,,,,,74.89361270001973,75.40049480000744,75.3837465000106,None,right,75.3837465000106,None,0.6537462999986019,,,Participant 5,001,2021_Dec_01_1454,Memory_Task,2021.2.3,59.92247229749452,
2,1,cute,left,0,0,0,1,0,6,6,22,,,,,,,,,,,,,,,76.07290810000268,76.58370540000033,76.56692860001931,None,None,76.56692860001931,None,,,,Participant 5,001,2021_Dec_01_1454,Memory_Task,2021.2.3,59.92247229749452,
2,1,dog,left,0,0,0,1,0,7,7,19,,,,,,,,,,,,,,,77.57200290000765,78.08349180000369,78.06669979999424,77.57200290000765,right,78.06669979999424,77.57200290000765,0.5897851999907289,,,Participant 5,001,2021_Dec_01_1454,Memory_Task,2021.2.3,59.92247229749452,
2,1,run,left,0,0,0,1,0,8,8,17,,,,,,,,,,,,,,,78.69012179999845,79.20368970002164,79.18976340000518,None,left,79.18976340000518,None,0.7085356999887154,,,Participant 5,001,2021_Dec_01_1454,Memory_Task,2021.2.3,59.92247229749452,
2,1,thinking,left,0,0,0,1,0,9,9,16,,,,,,,,,,,,,,,79.92724260000978,80.43292920000385,80.41632190000382,None,right,80.41632190000382,None,0.775913399993442,,,Participant 5,001,2021_Dec_01_1454,Memory_Task,2021.2.3,59.92247229749452,
2,1,paused,right,0,0,0,1,0,10,10,3,,,,,,,,,,,,,,,81.2245773000177,81.73260770001798,81.71827450001729,None,right,81.71827450001729,None,0.6596111000108067,,,Participant 5,001,2021_Dec_01_1454,Memory_Task,2021.2.3,59.92247229749452,
2,1,smiled,right,0,0,0,1,0,11,11,8,,,,,,,,,,,,,,,82.40773580002133,82.94247290000203,82.92765150000923,None,right,82.92765150000923,None,0.5754599000210874,,,Participant 5,001,2021_Dec_01_1454,Memory_Task,2021.2.3,59.92247229749452,
2,1,shouted,left,0,0,0,1,0,12,12,29,,,,,,,,,,,,,,,83.54127929999959,84.04891500002122,84.03211890000966,None,left,84.03211890000966,None,0.6073640999966301,,,Participant 5,001,2021_Dec_01_1454,Memory_Task,2021.2.3,59.92247229749452,
2,1,family,left,0,0,0,1,0,13,13,21,,,,,,,,,,,,,,,84.6748964000144,85.18193409999367,85.16538489999948,None,right,85.16538489999948,None,0.7042672999959905,,,Participant 5,001,2021_Dec_01_1454,Memory_Task,2021.2.3,59.92247229749452,
2,1,favourite,right,0,0,0,1,0,14,14,13,,,,,,,,,,,,,,,85.91930680000223,86.43172449999838,86.41603310001665,None,right,86.41603310001665,None,0.7281340999761596,,,Participant 5,001,2021_Dec_01_1454,Memory_Task,2021.2.3,59.92247229749452,
2,1,frowned,left,0,0,0,1,0,15,15,25,,,,,,,,,,,,,,,87.17552140000043,87.68151220001164,87.66495780000696,None,left,87.66495780000696,None,0.6443131999985781,,,Participant 5,001,2021_Dec_01_1454,Memory_Task,2021.2.3,59.92247229749452,
2,1,white,right,0,0,0,1,0,16,16,6,,,,,,,,,,,,,,,88.33795129999635,88.8477864000015,88.83128320000833,None,right,88.83128320000833,None,0.6632705999945756,,,Participant 5,001,2021_Dec_01_1454,Memory_Task,2021.2.3,59.92247229749452,
2,1,man,left,0,0,0,1,0,17,17,26,,,,,,,,,,,,,,,89.52222220000112,90.03119609999703,90.01443660000223,None,left,90.01443660000223,None,0.7619935999973677,,,Participant 5,001,2021_Dec_01_1454,Memory_Task,2021.2.3,59.92247229749452,
2,1,two,right,0,0,0,1,0,18,18,4,,,,,,,,,,,,,,,90.83964950000518,91.34753510000883,91.33085280001978,None,right,91.33085280001978,None,0.8445013999880757,,,Participant 5,001,2021_Dec_01_1454,Memory_Task,2021.2.3,59.92247229749452,
2,1,keep,right,0,0,0,1,0,19,19,11,,,,,,,,,,,,,,,92.20424869999988,92.71398060000502,92.69724550002138,None,right,92.69724550002138,None,0.9079523000109475,,,Participant 5,001,2021_Dec_01_1454,Memory_Task,2021.2.3,59.92247229749452,
2,1,small,left,0,0,0,1,0,20,20,28,,,,,,,,,,,,,,,93.63826420000987,94.14692900000955,94.13037560001248,None,right,94.13037560001248,None,0.8599693999858573,,,Participant 5,001,2021_Dec_01_1454,Memory_Task,2021.2.3,59.92247229749452,
2,1,hugged,right,0,0,0,1,0,21,21,1,,,,,,,,,,,,,,,95.02188509999542,95.5300622000068,95.51341770001454,None,right,95.51341770001454,None,0.8324548999953549,,,Participant 5,001,2021_Dec_01_1454,Memory_Task,2021.2.3,59.92247229749452,
2,1,dad,left,0,0,0,1,0,22,22,20,,,,,,,,,,,,,,,96.36836190000759,96.87971480001579,96.86322080000537,None,left,96.86322080000537,None,0.8927491999929771,,,Participant 5,001,2021_Dec_01_1454,Memory_Task,2021.2.3,59.92247229749452,
2,1,black,right,0,0,0,1,0,23,23,12,,,,,,,,,,,,,,,97.79827410000144,98.31291639999836,98.27953329999582,None,right,98.27953329999582,None,0.651350200001616,,,Participant 5,001,2021_Dec_01_1454,Memory_Task,2021.2.3,59.92247229749452,
2,1,entryway,right,0,0,0,1,0,24,24,9,,,,,,,,,,,,,,,98.98708849999821,99.50313749999623,99.4875602000102,None,right,99.4875602000102,None,0.6195136999886017,,,Participant 5,001,2021_Dec_01_1454,Memory_Task,2021.2.3,59.92247229749452,
2,1,feared,left,0,0,0,1,0,25,25,23,,,,,,,,,,,,,,,100.16803470000741,100.67926309999893,100.66236830002163,None,right,100.66236830002163,None,0.8996050000132527,,,Participant 5,001,2021_Dec_01_1454,Memory_Task,2021.2.3,59.92247229749452,
2,1,driveway,left,0,0,0,1,0,26,26,15,,,,,,,,,,,,,,,101.62040440001874,102.12882100002025,102.11223800000153,None,right,102.11223800000153,None,0.6601728000096045,,,Participant 5,001,2021_Dec_01_1454,Memory_Task,2021.2.3,59.92247229749452,
2,1,grey,left,0,0,0,1,0,27,27,18,,,,,,,,,,,,,,,102.837422600016,103.345149700006,103.32874329999322,None,left,103.32874329999322,None,0.6703028000192717,,,Participant 5,001,2021_Dec_01_1454,Memory_Task,2021.2.3,59.92247229749452,
2,1,lick,right,0,0,0,1,0,28,28,10,,,,,,,,,,,,,,,104.03516319999471,104.54502849999699,104.52832230000058,None,right,104.52832230000058,None,0.7993901000008918,,,Participant 5,001,2021_Dec_01_1454,Memory_Task,2021.2.3,59.92247229749452,
2,1,breeder,right,0,0,0,1,0,29,29,0,,,,,,,,,,,,,,,105.38691890001064,105.89466930000344,105.8779637000116,None,None,105.8779637000116,None,,,,Participant 5,001,2021_Dec_01_1454,Memory_Task,2021.2.3,59.92247229749452,
2,1,,,0,0,0,1,,,,,,,,,,,,,,,,,,,,,,,,,,,,,Participant 5,001,2021_Dec_01_1454,Memory_Task,2021.2.3,59.92247229749452,
1,0.5,white,right,0,1,1,0,0,0,0,6,,,,,,,,,,,,,,,106.94738610001514,107.46121350000612,107.44443510001292,107.94436150000547,right,107.44443510001292,106.94738610001514,0.6689575999916997,,,Participant 5,001,2021_Dec_01_1454,Memory_Task,2021.2.3,59.92247229749452,
1,0.5,cute,left,0,1,1,0,0,1,1,22,,,,,,,,,,,,,,,108.15338060000795,108.66083540002,108.62746270000935,109.12748019999708,right,108.62746270000935,None,0.6217064999800641,,,Participant 5,001,2021_Dec_01_1454,Memory_Task,2021.2.3,59.92247229749452,
1,0.5,dog,left,0,1,1,0,0,2,2,19,,,,,,,,,,,,,,,109.28618739999365,109.79416670001228,109.77736920001917,110.27720620000036,right,109.77736920001917,None,0.5006622000073548,,,Participant 5,001,2021_Dec_01_1454,Memory_Task,2021.2.3,59.92247229749452,
1,0.5,region,left,0,1,1,0,0,3,3,24,,,,,,,,,,,,,,,110.33336960000452,110.84384350001346,110.82715729999472,111.32711730001029,right,110.82715729999472,None,0.6927896999986842,,,Participant 5,001,2021_Dec_01_1454,Memory_Task,2021.2.3,59.92247229749452,
1,0.5,black,right,0,1,1,0,0,4,4,12,,,,,,,,,,,,,,,111.5824064000044,112.09326570000849,112.07688510001753,None,right,112.07688510001753,None,0.46959210000932217,,,Participant 5,001,2021_Dec_01_1454,Memory_Task,2021.2.3,59.92247229749452,
1,0.5,driveway,left,0,1,1,0,0,5,5,15,,,,,,,,,,,,,,,112.62678120000055,113.126757799997,113.10998440001276,113.61004610001692,left,113.10998440001276,None,0.6367451999976765,,,Participant 5,001,2021_Dec_01_1454,Memory_Task,2021.2.3,59.92247229749452,
1,0.5,keep,right,0,1,1,0,0,6,6,11,,,,,,,,,,,,,,,113.81853499999852,114.3265495999949,114.30979050000315,114.80983040001593,right,114.30979050000315,None,0.6380856999894604,,,Participant 5,001,2021_Dec_01_1454,Memory_Task,2021.2.3,59.92247229749452,
1,0.5,breeder,right,0,1,1,0,0,7,7,0,,,,,,,,,,,,,,,115.01836760001606,115.52629619999789,115.50945090001915,116.00962180001079,left,115.50945090001915,None,0.7024386000121012,,,Participant 5,001,2021_Dec_01_1454,Memory_Task,2021.2.3,59.92247229749452,
1,0.5,man,left,0,1,1,0,0,8,8,26,,,,,,,,,,,,,,,116.25177080000867,116.7594567000051,116.74269710000954,117.24269519999507,right,116.74269710000954,None,0.7347923000052106,,,Participant 5,001,2021_Dec_01_1454,Memory_Task,2021.2.3,59.92247229749452,
1,0.5,lick,right,0,1,1,0,0,9,9,10,,,,,,,,,,,,,,,117.51847750000888,118.02649950000341,117.9924840000167,118.49228830001084,right,117.9924840000167,None,0.6236261000158265,,,Participant 5,001,2021_Dec_01_1454,Memory_Task,2021.2.3,59.92247229749452,
1,0.5,frowned,left,0,1,1,0,0,10,10,25,,,,,,,,,,,,,,,118.65849120001076,119.15901659999508,119.14235599999665,119.64197940001031,left,119.14235599999665,None,0.5247662999900058,,,Participant 5,001,2021_Dec_01_1454,Memory_Task,2021.2.3,59.92247229749452,
1,0.5,shouted,left,0,1,1,0,0,11,11,29,,,,,,,,,,,,,,,119.7036897999933,120.20867880000151,120.19194560000324,120.69165560000692,left,120.19194560000324,None,0.6202175999933388,,,Participant 5,001,2021_Dec_01_1454,Memory_Task,2021.2.3,59.92247229749452,
1,0.5,dad,left,0,1,1,0,0,12,12,20,,,,,,,,,,,,,,,120.84746950000408,121.35829540001578,121.34184740000637,121.84170670001185,left,121.34184740000637,None,0.6872505999926943,,,Participant 5,001,2021_Dec_01_1454,Memory_Task,2021.2.3,59.92247229749452,
1,0.5,small,left,0,1,1,0,0,13,13,28,,,,,,,,,,,,,,,122.06791870002053,122.57495949999429,122.54160680001951,123.04105739999795,right,122.54160680001951,None,0.686540700000478,,,Participant 5,001,2021_Dec_01_1454,Memory_Task,2021.2.3,59.92247229749452,
1,0.5,hugged,right,0,1,1,0,0,14,14,1,,,,,,,,,,,,,,,123.30101779999677,123.80791289999615,123.79134640001575,124.29138540002168,right,123.79134640001575,None,0.7583177000051364,,,Participant 5,001,2021_Dec_01_1454,Memory_Task,2021.2.3,59.92247229749452,
1,0.5,entryway,right,0,1,1,0,0,15,15,9,,,,,,,,,,,,,,,124.58552399999462,125.09098330000415,125.07442250000895,125.57434390002163,right,125.07442250000895,None,0.5838775000011083,,,Participant 5,001,2021_Dec_01_1454,Memory_Task,2021.2.3,59.92247229749452,
1,0.5,smiled,right,0,1,1,0,0,16,16,8,,,,,,,,,,,,,,,125.71977230001357,126.2496802000096,126.23668850000831,126.74077910001506,right,126.23668850000831,None,0.5617271999944933,,,Participant 5,001,2021_Dec_01_1454,Memory_Task,2021.2.3,59.92247229749452,
1,0.5,favourite,right,0,1,1,0,0,17,17,13,,,,,,,,,,,,,,,126.86728130001575,127.37403840001207,127.35737370001152,127.85710550000658,left,127.35737370001152,None,0.5012990000250284,,,Participant 5,001,2021_Dec_01_1454,Memory_Task,2021.2.3,59.92247229749452,
1,0.5,spots,right,0,1,1,0,0,18,18,5,,,,,,,,,,,,,,,127.92917390001821,128.44045500000357,128.42384679999668,None,right,128.42384679999668,None,0.45894010001211427,,,Participant 5,001,2021_Dec_01_1454,Memory_Task,2021.2.3,59.92247229749452,
1,0.5,whistled,right,0,1,1,0,0,19,19,14,,,,,,,,,,,,,,,128.94900980000966,129.4568394999951,129.44024500000523,129.94012770001427,left,129.44024500000523,None,0.8093914999917615,,,Participant 5,001,2021_Dec_01_1454,Memory_Task,2021.2.3,59.92247229749452,
1,0.5,family,left,0,1,1,0,0,20,20,21,,,,,,,,,,,,,,,130.31451460000244,130.8233104000101,130.80664310001885,131.30645810000715,left,130.80664310001885,None,0.7831262999970932,,,Participant 5,001,2021_Dec_01_1454,Memory_Task,2021.2.3,59.92247229749452,
1,0.5,run,left,0,1,1,0,0,21,21,17,,,,,,,,,,,,,,,131.61650000000373,132.12308089999715,132.08984749999945,132.58967909999774,right,132.08984749999945,None,0.7939656999951694,,,Participant 5,001,2021_Dec_01_1454,Memory_Task,2021.2.3,59.92247229749452,
1,0.5,grey,left,0,1,1,0,0,22,22,18,,,,,,,,,,,,,,,132.9480351000093,133.45609479999985,133.43928429999505,133.93943860000581,left,133.43928429999505,None,0.6311624000081792,,,Participant 5,001,2021_Dec_01_1454,Memory_Task,2021.2.3,59.92247229749452,
1,0.5,call,left,0,1,1,0,0,23,23,27,,,,,,,,,,,,,,,134.13121550000506,134.63932940000086,134.62266490000184,135.12321650001104,left,134.62266490000184,None,0.6446787999884691,,,Participant 5,001,2021_Dec_01_1454,Memory_Task,2021.2.3,59.92247229749452,
1,0.5,paused,right,0,1,1,0,0,24,24,3,,,,,,,,,,,,,,,135.29977370001143,135.80572200001916,135.78903390001506,136.28874990000622,left,135.78903390001506,None,0.7706573999894317,,,Participant 5,001,2021_Dec_01_1454,Memory_Task,2021.2.3,59.92247229749452,
1,0.5,thinking,left,0,1,1,0,0,25,25,16,,,,,,,,,,,,,,,136.6308268000139,137.13881950001814,137.12189120001858,None,right,137.12189120001858,None,0.3989399000129197,,,Participant 5,001,2021_Dec_01_1454,Memory_Task,2021.2.3,59.92247229749452,
1,0.5,name,right,0,1,1,0,0,26,26,7,,,,,,,,,,,,,,,137.54591250000522,138.05528080000659,138.03858860000037,138.53850930000772,right,138.03858860000037,None,0.5630978000117466,,,Participant 5,001,2021_Dec_01_1454,Memory_Task,2021.2.3,59.92247229749452,
1,0.5,feared,left,0,1,1,0,0,27,27,23,,,,,,,,,,,,,,,138.63098660000833,139.1382700999966,139.1217661999981,139.62144089999492,left,139.1217661999981,None,0.636356800008798,,,Participant 5,001,2021_Dec_01_1454,Memory_Task,2021.2.3,59.92247229749452,
1,0.5,two,right,0,1,1,0,0,28,28,4,,,,,,,,,,,,,,,139.79452409999794,140.30470780000906,140.28814390001935,140.78809370001545,right,140.28814390001935,None,0.5035968000011053,,,Participant 5,001,2021_Dec_01_1454,Memory_Task,2021.2.3,59.92247229749452,
1,0.5,minute,right,0,1,1,0,0,29,29,2,,,,,,,,,,,,,,,140.83116030000383,141.33797230001073,141.32132170000114,141.82084870000836,right,141.32132170000114,None,0.6208341000019573,,,Participant 5,001,2021_Dec_01_1454,Memory_Task,2021.2.3,59.92247229749452,
1,0.5,,,0,1,1,0,,,,,,,,,,,,,,,,,,,,,,,,,,,,,Participant 5,001,2021_Dec_01_1454,Memory_Task,2021.2.3,59.92247229749452,
,,,,,,,,,,,,,,,,,,,,,,,,,,,,,,,,,,141.97476189999725,None,,,,,,,
