cond,dur,word_stim,correct_resp,conditions.thisRepN,conditions.thisTrialN,conditions.thisN,conditions.thisIndex,word_stimuli.thisRepN,word_stimuli.thisTrialN,word_stimuli.thisN,word_stimuli.thisIndex,image.started,image.stopped,key_resp_2.keys,key_resp_2.rt,key_resp_2.started,key_resp_2.stopped,image_2.started,image_2.stopped,key_resp_3.keys,key_resp_3.rt,key_resp_3.started,key_resp_3.stopped,text_2.started,text_2.stopped,cross.started,cross.stopped,words.started,words.stopped,key_resp.keys,key_resp.rt,key_resp.started,key_resp.stopped,text.started,text.stopped,participant,session,date,expName,psychopyVersion,frameRate,
,,,,,,,,,,,,31.914633700012928,None,z,2.118312500009779,31.914633700012928,None,,,,,,,,,,,,,,,,,,,participant 3,001,2021_Dec_01_1443,Memory_Task,2021.2.3,59.835703125679835,
,,,,,,,,,,,,,,,,,,34.08638799999608,None,z,9.808544900006382,34.08638799999608,None,,,,,,,,,,,,,participant 3,001,2021_Dec_01_1443,Memory_Task,2021.2.3,59.835703125679835,
2,1,breeder,right,0,0,0,1,0,0,0,0,,,,,,,,,,,,,43.96212840001681,None,46.10182050001458,46.61029979999876,46.59391960001085,None,right,0.9744143999996595,46.59391960001085,None,,,participant 3,001,2021_Dec_01_1443,Memory_Task,2021.2.3,59.835703125679835,
2,1,small,left,0,0,0,1,0,1,1,28,,,,,,,,,,,,,,,47.62254510002094,48.125279700005194,48.10855279999669,None,left,0.7262334999977611,48.10855279999669,None,,,participant 3,001,2021_Dec_01_1443,Memory_Task,2021.2.3,59.835703125679835,
2,1,black,right,0,0,0,1,0,2,2,12,,,,,,,,,,,,,,,48.86773970001377,49.37521430000197,49.341729600011604,None,left,0.6513439000118524,49.341729600011604,None,,,participant 3,001,2021_Dec_01_1443,Memory_Task,2021.2.3,59.835703125679835,
2,1,shouted,left,0,0,0,1,0,3,3,29,,,,,,,,,,,,,,,50.017547299998114,50.524782399996184,50.50824110000394,None,left,0.6017287000140641,50.50824110000394,None,,,participant 3,001,2021_Dec_01_1443,Memory_Task,2021.2.3,59.835703125679835,
2,1,minute,right,0,0,0,1,0,4,4,2,,,,,,,,,,,,,,,51.17952000000514,51.691446400014684,51.674708900012774,None,left,0.5955520999850705,51.674708900012774,None,,,participant 3,001,2021_Dec_01_1443,Memory_Task,2021.2.3,59.835703125679835,
2,1,man,left,0,0,0,1,0,5,5,26,,,,,,,,,,,,,,,52.30053940002108,52.80794759999844,52.790939600003185,None,left,0.7179757000121754,52.790939600003185,None,,,participant 3,001,2021_Dec_01_1443,Memory_Task,2021.2.3,59.835703125679835,
2,1,entryway,right,0,0,0,1,0,6,6,9,,,,,,,,,,,,,,,53.573086599993985,54.07464639999671,54.05761150000035,None,right,0.596634699992137,54.05761150000035,None,,,participant 3,001,2021_Dec_01_1443,Memory_Task,2021.2.3,59.835703125679835,
2,1,call,left,0,0,0,1,0,7,7,27,,,,,,,,,,,,,,,54.71257050000713,55.223958999995375,55.20732240000507,None,left,0.526542099978542,55.20732240000507,None,,,participant 3,001,2021_Dec_01_1443,Memory_Task,2021.2.3,59.835703125679835,
2,1,white,right,0,0,0,1,0,8,8,6,,,,,,,,,,,,,,,55.76597120001679,56.2738543000014,56.25715449999552,None,left,0.870008300000336,56.25715449999552,None,,,participant 3,001,2021_Dec_01_1443,Memory_Task,2021.2.3,59.835703125679835,
2,1,lick,right,0,0,0,1,0,9,9,10,,,,,,,,,,,,,,,57.17387420000159,57.672944100020686,57.65683640001225,None,right,0.7030897999939043,57.65683640001225,None,,,participant 3,001,2021_Dec_01_1443,Memory_Task,2021.2.3,59.835703125679835,
2,1,dad,left,0,0,0,1,0,10,10,20,,,,,,,,,,,,,,,58.39487469999585,58.90648470001179,58.889706700021634,None,left,0.9004650000133552,58.889706700021634,None,,,participant 3,001,2021_Dec_01_1443,Memory_Task,2021.2.3,59.835703125679835,
2,1,hugged,right,0,0,0,1,0,11,11,1,,,,,,,,,,,,,,,59.81948440000997,60.323046400008025,60.306298600015,None,left,0.7145956000022124,60.306298600015,None,,,participant 3,001,2021_Dec_01_1443,Memory_Task,2021.2.3,59.835703125679835,
2,1,grey,left,0,0,0,1,0,12,12,18,,,,,,,,,,,,,,,61.05047030001879,61.556179900013376,61.54061470000306,None,None,,61.54061470000306,None,,,participant 3,001,2021_Dec_01_1443,Memory_Task,2021.2.3,59.835703125679835,
2,1,cute,left,0,0,0,1,0,13,13,22,,,,,,,,,,,,,,,62.559827599994605,63.072280199994566,63.05571070002043,62.559827599994605,left,0.7300746999972034,63.05571070002043,62.559827599994605,,,participant 3,001,2021_Dec_01_1443,Memory_Task,2021.2.3,59.835703125679835,
2,1,paused,right,0,0,0,1,0,14,14,3,,,,,,,,,,,,,,,63.8166223000153,64.3223329000175,64.30548189999536,None,None,,64.30548189999536,None,,,participant 3,001,2021_Dec_01_1443,Memory_Task,2021.2.3,59.835703125679835,
2,1,dog,left,0,0,0,1,0,15,15,19,,,,,,,,,,,,,,,65.32349219999742,65.83856600002036,65.80569410001044,65.32349219999742,right,0.7810026000079233,65.80569410001044,65.32349219999742,,,participant 3,001,2021_Dec_01_1443,Memory_Task,2021.2.3,59.835703125679835,
2,1,whistled,right,0,0,0,1,0,16,16,14,,,,,,,,,,,,,,,66.61626830001478,67.12162340001669,67.10510850002174,None,left,0.7866613999940455,67.10510850002174,None,,,participant 3,001,2021_Dec_01_1443,Memory_Task,2021.2.3,59.835703125679835,
2,1,spots,right,0,0,0,1,0,17,17,5,,,,,,,,,,,,,,,67.9333539000072,68.43801559999702,68.42152380000334,None,left,0.8122881000163034,68.42152380000334,None,,,participant 3,001,2021_Dec_01_1443,Memory_Task,2021.2.3,59.835703125679835,
2,1,feared,left,0,0,0,1,0,18,18,23,,,,,,,,,,,,,,,69.26516050001374,69.77121890001581,69.75439869999536,None,left,0.6579466999974102,69.75439869999536,None,,,participant 3,001,2021_Dec_01_1443,Memory_Task,2021.2.3,59.835703125679835,
2,1,name,right,0,0,0,1,0,19,19,7,,,,,,,,,,,,,,,70.44484999999986,70.95428360000369,70.93770330000552,None,right,0.819696099992143,70.93770330000552,None,,,participant 3,001,2021_Dec_01_1443,Memory_Task,2021.2.3,59.835703125679835,
2,1,driveway,left,0,0,0,1,0,20,20,15,,,,,,,,,,,,,,,71.80391149999923,72.30409680001321,72.28745730000082,None,None,,72.28745730000082,None,,,participant 3,001,2021_Dec_01_1443,Memory_Task,2021.2.3,59.835703125679835,
2,1,run,left,0,0,0,1,0,21,21,17,,,,,,,,,,,,,,,73.29243560001487,73.8262945000024,73.8139882000105,73.29243560001487,left,0.8919279999972787,73.8139882000105,73.29243560001487,,,participant 3,001,2021_Dec_01_1443,Memory_Task,2021.2.3,59.835703125679835,
2,1,thinking,left,0,0,0,1,0,22,22,16,,,,,,,,,,,,,,,74.74878870000248,75.25351400001091,75.23679059999995,None,left,0.7122257000009995,75.23679059999995,None,,,participant 3,001,2021_Dec_01_1443,Memory_Task,2021.2.3,59.835703125679835,
2,1,frowned,left,0,0,0,1,0,23,23,25,,,,,,,,,,,,,,,75.97936779999873,76.48665390000679,76.46996620000573,None,left,0.7141187000088394,76.46996620000573,None,,,participant 3,001,2021_Dec_01_1443,Memory_Task,2021.2.3,59.835703125679835,
2,1,region,left,0,0,0,1,0,24,24,24,,,,,,,,,,,,,,,77.21403689999715,77.74413940001978,77.73084880001261,None,left,0.5481876000121702,77.73084880001261,None,,,participant 3,001,2021_Dec_01_1443,Memory_Task,2021.2.3,59.835703125679835,
2,1,favourite,right,0,0,0,1,0,25,25,13,,,,,,,,,,,,,,,78.3187384000048,78.82435010001063,78.80862240001443,None,left,0.6265514999977313,78.80862240001443,None,,,participant 3,001,2021_Dec_01_1443,Memory_Task,2021.2.3,59.835703125679835,
2,1,family,left,0,0,0,1,0,26,26,21,,,,,,,,,,,,,,,79.46368770001573,79.96961990001728,79.95307210000465,None,left,0.7364557000109926,79.95307210000465,None,,,participant 3,001,2021_Dec_01_1443,Memory_Task,2021.2.3,59.835703125679835,
2,1,two,right,0,0,0,1,0,27,27,4,,,,,,,,,,,,,,,80.72877159999916,81.23573650000617,81.21907010002178,None,left,0.5977147999801673,81.21907010002178,None,,,participant 3,001,2021_Dec_01_1443,Memory_Task,2021.2.3,59.835703125679835,
2,1,keep,right,0,0,0,1,0,28,28,11,,,,,,,,,,,,,,,81.87373799999477,82.38703959999839,82.36876559999655,None,left,0.6664691000187304,82.36876559999655,None,,,participant 3,001,2021_Dec_01_1443,Memory_Task,2021.2.3,59.835703125679835,
2,1,smiled,right,0,0,0,1,0,29,29,8,,,,,,,,,,,,,,,83.07555350000621,83.58509619999677,83.57002860002103,None,left,0.5704398999805562,83.57002860002103,None,,,participant 3,001,2021_Dec_01_1443,Memory_Task,2021.2.3,59.835703125679835,
2,1,,,0,0,0,1,,,,,,,,,,,,,,,,,,,,,,,,,,,,,participant 3,001,2021_Dec_01_1443,Memory_Task,2021.2.3,59.835703125679835,
1,0.5,minute,right,0,1,1,0,0,0,0,2,,,,,,,,,,,,,,,84.2146797000023,84.73048070000368,84.71737500000745,85.21796249999898,left,0.7138487000192981,84.71737500000745,None,,,participant 3,001,2021_Dec_01_1443,Memory_Task,2021.2.3,59.835703125679835,
1,0.5,cute,left,0,1,1,0,0,1,1,22,,,,,,,,,,,,,,,85.46294009999838,85.9685218000086,85.95132740002009,86.45133330000681,right,0.8049979000061285,85.95132740002009,None,,,participant 3,001,2021_Dec_01_1443,Memory_Task,2021.2.3,59.835703125679835,
1,0.5,white,right,0,1,1,0,0,2,2,6,,,,,,,,,,,,,,,86.79345320002176,87.30897620000178,87.29516030001105,87.80121629999485,right,0.55277290000231,87.29516030001105,None,,,participant 3,001,2021_Dec_01_1443,Memory_Task,2021.2.3,59.835703125679835,
1,0.5,smiled,right,0,1,1,0,0,3,3,8,,,,,,,,,,,,,,,87.87894009999582,88.38453700000537,88.36761939999997,88.86749920001603,left,0.623940700024832,88.36761939999997,None,,,participant 3,001,2021_Dec_01_1443,Memory_Task,2021.2.3,59.835703125679835,
1,0.5,man,left,0,1,1,0,0,4,4,26,,,,,,,,,,,,,,,89.05462150002131,89.56741220000549,89.55179160000989,90.05057280001347,left,0.731274999998277,89.55179160000989,None,,,participant 3,001,2021_Dec_01_1443,Memory_Task,2021.2.3,59.835703125679835,
1,0.5,dad,left,0,1,1,0,0,5,5,20,,,,,,,,,,,,,,,90.33910520002246,90.85060190001968,90.83383899999899,91.33393240001169,left,0.528327400010312,90.83383899999899,None,,,participant 3,001,2021_Dec_01_1443,Memory_Task,2021.2.3,59.835703125679835,
1,0.5,family,left,0,1,1,0,0,6,6,21,,,,,,,,,,,,,,,91.4004941000021,91.90037940000184,91.88348869999754,None,left,0.4339905000233557,91.88348869999754,None,,,participant 3,001,2021_Dec_01_1443,Memory_Task,2021.2.3,59.835703125679835,
1,0.5,call,left,0,1,1,0,0,7,7,27,,,,,,,,,,,,,,,92.3437182000198,92.85014880000381,92.81677840001066,None,left,0.4405530999938492,92.81677840001066,None,,,participant 3,001,2021_Dec_01_1443,Memory_Task,2021.2.3,59.835703125679835,
1,0.5,feared,left,0,1,1,0,0,8,8,23,,,,,,,,,,,,,,,93.32222470000852,93.83333950000815,93.81645690000732,None,left,0.3625123999954667,93.81645690000732,None,,,participant 3,001,2021_Dec_01_1443,Memory_Task,2021.2.3,59.835703125679835,
1,0.5,run,left,0,1,1,0,0,9,9,17,,,,,,,,,,,,,,,94.20993230000022,94.71602459999849,94.6831565000175,None,left,0.43125250001321547,94.6831565000175,None,,,participant 3,001,2021_Dec_01_1443,Memory_Task,2021.2.3,59.835703125679835,
1,0.5,region,left,0,1,1,0,0,10,10,24,,,,,,,,,,,,,,,95.14374980001594,95.64952599999378,95.63274440000532,None,left,0.43550980000873096,95.63274440000532,None,,,participant 3,001,2021_Dec_01_1443,Memory_Task,2021.2.3,59.835703125679835,
1,0.5,shouted,left,0,1,1,0,0,11,11,29,,,,,,,,,,,,,,,96.11286540000583,96.61591009999393,96.599435000011,97.09929300000658,right,0.614253000007011,96.599435000011,None,,,participant 3,001,2021_Dec_01_1443,Memory_Task,2021.2.3,59.835703125679835,
1,0.5,grey,left,0,1,1,0,0,12,12,18,,,,,,,,,,,,,,,97.24370010002167,97.76418910000939,97.75140700000338,None,left,0.3773061000101734,97.75140700000338,None,,,participant 3,001,2021_Dec_01_1443,Memory_Task,2021.2.3,59.835703125679835,
1,0.5,paused,right,0,1,1,0,0,13,13,3,,,,,,,,,,,,,,,98.18784880000749,98.69903509999858,98.68216690002009,99.18225149999489,left,0.5215642999974079,98.68216690002009,None,,,participant 3,001,2021_Dec_01_1443,Memory_Task,2021.2.3,59.835703125679835,
1,0.5,spots,right,0,1,1,0,0,14,14,5,,,,,,,,,,,,,,,99.2393754000077,99.77207249999628,99.7596887999971,None,right,0.4856656999909319,99.7596887999971,None,,,participant 3,001,2021_Dec_01_1443,Memory_Task,2021.2.3,59.835703125679835,
1,0.5,black,right,0,1,1,0,0,15,15,12,,,,,,,,,,,,,,,100.27550220000558,100.78176090001944,100.76514760000282,100.27550220000558,right,0.4788692000147421,100.76514760000282,None,,,participant 3,001,2021_Dec_01_1443,Memory_Task,2021.2.3,59.835703125679835,
1,0.5,dog,left,0,1,1,0,0,16,16,19,,,,,,,,,,,,,,,101.27328220001073,101.80799770000158,101.79425010000705,102.29832030000398,right,0.5902316000137944,101.79425010000705,None,,,participant 3,001,2021_Dec_01_1443,Memory_Task,2021.2.3,59.835703125679835,
1,0.5,favourite,right,0,1,1,0,0,17,17,13,,,,,,,,,,,,,,,102.45926269999472,102.96481160001713,102.95015390001936,103.46440180001082,left,0.6447995000053197,102.95015390001936,None,,,participant 3,001,2021_Dec_01_1443,Memory_Task,2021.2.3,59.835703125679835,
1,0.5,frowned,left,0,1,1,0,0,18,18,25,,,,,,,,,,,,,,,103.62637420001556,104.1574717000185,104.14346590000787,None,left,0.47135740000521764,104.14346590000787,None,,,participant 3,001,2021_Dec_01_1443,Memory_Task,2021.2.3,59.835703125679835,
1,0.5,breeder,right,0,1,1,0,0,19,19,0,,,,,,,,,,,,,,,104.67383300000802,105.18108370000846,105.16431690001627,105.66428520000773,right,0.6224818000046071,105.16431690001627,None,,,participant 3,001,2021_Dec_01_1443,Memory_Task,2021.2.3,59.835703125679835,
1,0.5,driveway,left,0,1,1,0,0,20,20,15,,,,,,,,,,,,,,,105.85949510001228,106.36427380001987,106.3475357000134,None,left,0.4681822000129614,106.3475357000134,None,,,participant 3,001,2021_Dec_01_1443,Memory_Task,2021.2.3,59.835703125679835,
1,0.5,hugged,right,0,1,1,0,0,21,21,1,,,,,,,,,,,,,,,106.85567439999431,107.36399209999945,107.34735940000974,107.84714120000717,left,0.508554500003811,107.34735940000974,None,,,participant 3,001,2021_Dec_01_1443,Memory_Task,2021.2.3,59.835703125679835,
1,0.5,entryway,right,0,1,1,0,0,22,22,9,,,,,,,,,,,,,,,107.89236090000486,108.397185800015,108.38039190002019,None,right,0.36534239997854456,108.38039190002019,None,,,participant 3,001,2021_Dec_01_1443,Memory_Task,2021.2.3,59.835703125679835,
1,0.5,two,right,0,1,1,0,0,23,23,4,,,,,,,,,,,,,,,108.81092750001699,109.31357880000724,109.29699140001321,None,left,0.37729139998555183,109.29699140001321,None,,,participant 3,001,2021_Dec_01_1443,Memory_Task,2021.2.3,59.835703125679835,
1,0.5,thinking,left,0,1,1,0,0,24,24,16,,,,,,,,,,,,,,,109.71217959999922,110.21383360002073,110.1968245000171,None,left,0.43078029999742284,110.1968245000171,None,,,participant 3,001,2021_Dec_01_1443,Memory_Task,2021.2.3,59.835703125679835,
1,0.5,name,right,0,1,1,0,0,25,25,7,,,,,,,,,,,,,,,110.65753419999965,111.16303359999438,111.14662440001848,None,left,0.3861054000153672,111.14662440001848,None,,,participant 3,001,2021_Dec_01_1443,Memory_Task,2021.2.3,59.835703125679835,
1,0.5,keep,right,0,1,1,0,0,26,26,11,,,,,,,,,,,,,,,111.56894920000923,112.07970510001178,112.06304400000954,None,right,0.42910229999688454,112.06304400000954,None,,,participant 3,001,2021_Dec_01_1443,Memory_Task,2021.2.3,59.835703125679835,
1,0.5,whistled,right,0,1,1,0,0,27,27,14,,,,,,,,,,,,,,,112.52461250001215,113.02956019999692,113.01281149999704,None,right,0.4151672000007238,113.01281149999704,None,,,participant 3,001,2021_Dec_01_1443,Memory_Task,2021.2.3,59.835703125679835,
1,0.5,lick,right,0,1,1,0,0,28,28,10,,,,,,,,,,,,,,,113.45402470001136,113.96274010001798,113.94598620000761,None,right,0.35107080001034774,113.94598620000761,None,,,participant 3,001,2021_Dec_01_1443,Memory_Task,2021.2.3,59.835703125679835,
1,0.5,small,left,0,1,1,0,0,29,29,28,,,,,,,,,,,,,,,114.34428210000624,114.84574420002173,114.82912160002161,None,left,0.477763100003358,114.82912160002161,None,,,participant 3,001,2021_Dec_01_1443,Memory_Task,2021.2.3,59.835703125679835,
1,0.5,,,0,1,1,0,,,,,,,,,,,,,,,,,,,,,,,,,,,,,participant 3,001,2021_Dec_01_1443,Memory_Task,2021.2.3,59.835703125679835,
,,,,,,,,,,,,,,,,,,,,,,,,,,,,,,,,,,115.33135000002221,None,,,,,,,
